Folder: PythonJunk

File: sneha_data.csv
n2_id,x_n2,y_n2,ra_n2,dec_n2,mag_n2,n2_err,apert_n2,cps,correct_cps,mag_n2_correc,n2-v_1,xcd_n2,ycd_n2,r_n2,phi_n2,theta_n2,age,log(Z),mass,logl,logt,logg,phase,composition,log(weight),V,U,B,R,I,FUV,NUV,caf2,baf2,sapph,silica,nuv_silica,b15,b13,b4,n2,aFUV,aNUV,aV,aI,fuv-nuv,fuv-v,nuv-v,fuv-i,nuv-i,acaf2,an2,asapph,caf2-n2,sapph-n2,caf2-sapph,caf2-v,sapph-v,n2-v_2,V-I,Separation
110,757.489,1198.783,13.3663,-26.6587,19.135,0.037,18.935,0.102329,0.102512,18.933,2.529,2.3701,-0.6765,2.4647,344.0695,254.0695,9.35,-2.9208,1.34493,1.2146,3.7965,3.4832,0,0.4787,-3.8753,1.744,2.85,2.051,1.65,1.618,10.591,5.087,10.87,10.217,9.888,8.368,4.824,5.308,4.963,4.461,4.229,25.359,19.855,16.512,16.386,5.504,8.847,3.343,8.973,3.469,25.638,18.997,24.656,6.641,5.659,0.982,9.126,8.144,2.485,0.126,0.0776655
2032,2177.619,2169.416,13.151,-26.6069,19.722,0.07,19.522,0.0595937,0.0596556,19.521,2.09,0.5564,-0.4484,0.7146,321.1318,231.1318,9.65,-2.9208,1.0837,0.8288,3.8619,4.0365,0,0.4787,-3.0235,2.649,3.672,2.786,2.665,2.712,8.763,5.321,8.874,8.413,8.092,6.94,5.15,5.468,5.198,4.869,4.71,23.531,20.089,17.417,17.48,3.442,6.114,2.672,6.051,2.609,23.642,19.478,22.86,4.164,3.382,0.782,6.225,5.443,2.061,-0.063,0.0518651
1557,1143.926,2090.327,13.2807,-26.576,20.516,0.072,20.316,0.0286814,0.0286957,20.315,1.883,1.5701,0.3881,1.6173,13.884,283.884,9.0,-2.9208,1.11653,0.4562,3.8694,4.453,0,0.4787,-2.3667,3.599,4.565,3.725,3.626,3.674,9.4,6.092,9.505,9.051,8.73,7.598,5.93,6.227,5.971,5.662,5.517,24.168,20.86,18.367,18.442,3.308,5.801,2.493,5.726,2.418,24.273,20.285,23.498,3.988,3.213,0.775,5.906,5.131,1.918,-0.075,0.0460981
4616,1700.089,2606.652,13.1905,-26.5408,20.62,0.121,20.42,0.0260615,0.0260734,20.42,2.01,-1.203,0.1723,1.2153,171.8479,81.8479,9.45,-2.9208,1.04052,0.4335,3.857,4.3952,0,0.4787,-2.4545,3.655,4.645,3.818,3.653,3.69,9.867,6.275,9.981,9.5,9.178,7.966,6.1,6.421,6.153,5.818,5.66,24.635,21.043,18.423,18.458,3.592,6.212,2.62,6.177,2.585,24.749,20.428,23.946,4.321,3.518,0.803,6.326,5.523,2.005,-0.035,0.00943391
1582,1889.428,2095.634,13.1894,-26.6039,19.761,0.073,19.561,0.057491,0.0575487,19.56,1.906,1.3976,0.1753,1.4086,7.1489,277.1489,9.55,-2.9208,1.10242,0.7125,3.8806,4.2355,0,0.4787,-2.5474,2.952,3.917,3.035,3.007,3.074,8.365,5.389,8.478,8.055,7.737,6.721,5.241,5.517,5.274,4.985,4.848,23.133,20.157,17.72,17.842,2.976,5.413,2.437,5.291,2.315,23.246,19.616,22.505,3.63,2.889,0.741,5.526,4.785,1.896,-0.122,0.0568864
2419,1715.597,2223.479,13.2051,-26.5833,19.346,0.069,19.146,0.0842558,0.0843798,19.144,1.704,0.0231,1.9539,1.954,89.3224,359.3224,9.35,-2.9208,1.2239,0.8243,3.9103,4.2879,0,0.4787,-2.6468,2.726,3.601,2.718,2.825,2.929,6.899,4.793,7.066,6.7,6.413,5.687,4.685,4.879,4.709,4.486,4.387,21.667,19.561,17.494,17.697,2.106,4.173,2.067,3.97,1.864,21.834,19.155,21.181,2.679,2.026,0.653,4.34,3.687,1.661,-0.203,0.0443849
3120,1983.197,2315.857,13.1684,-26.5834,20.373,0.071,20.173,0.032719,0.0327377,20.172,2.047,0.2646,0.7881,0.8313,71.4383,341.4383,9.7,-2.9208,1.00338,0.552,3.8547,4.2514,0,0.4787,-3.3768,3.353,4.358,3.517,3.349,3.386,9.648,6.023,9.764,9.282,8.96,7.747,5.846,6.173,5.901,5.56,5.397,24.416,20.791,18.121,18.154,3.625,6.295,2.67,6.262,2.637,24.532,20.165,23.728,4.367,3.563,0.804,6.411,5.607,2.044,-0.033,0.00761656
3862,1552.955,2427.242,13.2162,-26.55482,19.901,0.078,19.701,0.0505359,0.0505804,19.7,1.916,1.674,1.2554,2.0924,36.8664,306.8664,9.55,-2.9208,1.09175,0.6787,3.8782,4.2554,0,0.4787,-3.3606,3.036,4.005,3.128,3.086,3.15,8.549,5.495,8.659,8.229,7.911,6.867,5.343,5.625,5.378,5.084,4.944,23.317,20.263,17.804,17.918,3.054,5.513,2.459,5.399,2.345,23.427,19.712,22.679,3.715,2.967,0.748,5.623,4.875,1.908,-0.114,0.0144216
1676,1964.684,2115.804,13.1793,-26.6046,20.166,0.072,19.966,0.0395913,0.0396187,19.965,1.967,0.3106,-0.4975,0.5865,301.9777,211.9777,9.55,-2.9208,1.06706,0.591,3.8703,4.3017,0,0.4787,-2.7892,3.254,4.235,3.373,3.287,3.339,9.039,5.778,9.146,8.698,8.378,7.267,5.617,5.914,5.658,5.348,5.202,23.807,20.546,18.022,18.107,3.261,5.785,2.524,5.7,2.439,23.914,19.97,23.146,3.944,3.176,0.768,5.892,5.124,1.948,-0.085,0.0196469
3723,1911.768,2403.879,13.1734,-26.57108,20.767,0.075,20.567,0.0227615,0.0227705,20.567,2.57,1.3404,1.4908,2.0048,48.041,318.041,9.9,-2.9208,0.942989,0.7425,3.7701,3.6948,0,0.4787,-3.4587,2.979,4.157,3.38,2.823,2.737,13.164,6.654,13.55,12.814,12.483,10.877,6.343,6.922,6.538,5.941,5.695,27.932,21.422,17.747,17.505,6.51,10.185,3.675,10.427,3.917,28.318,20.463,27.251,7.855,6.788,1.067,10.571,9.504,2.716,0.242,0.179254
3054,1786.853,2308.219,13.1928,-26.5768,19.496,0.065,19.296,0.0733838,0.0734777,19.295,1.807,1.0331,0.6209,1.2053,31.0041,301.0041,9.45,-2.9208,1.18685,0.8244,3.8926,4.2038,0,0.4787,-2.662,2.684,3.623,2.727,2.76,2.844,7.63,4.997,7.76,7.362,7.051,6.148,4.864,5.11,4.892,4.629,4.505,22.398,19.765,17.452,17.612,2.633,4.946,2.313,4.786,2.153,22.528,19.273,21.819,3.255,2.546,0.709,5.076,4.367,1.821,-0.16,0.0260769
3937,1955.859,2438.564,13.1665,-26.569,20.916,0.089,20.716,0.0198427,0.0198495,20.716,2.089,0.5702,0.7399,0.9341,52.3802,322.3802,9.75,-2.9208,0.939361,0.3559,3.8344,4.3382,0,0.4787,-2.5098,3.861,4.86,4.079,3.823,3.839,10.767,6.657,10.915,10.381,10.056,8.723,6.457,6.821,6.536,6.15,5.969,25.535,21.425,18.629,18.607,4.11,6.906,2.796,6.928,2.818,25.683,20.737,24.824,4.946,4.087,0.859,7.054,6.195,2.108,0.022,0.0283199
1838,1907.021,2143.308,13.1852,-26.5994,20.894,0.1,20.694,0.0202488,0.020256,20.694,2.218,0.1898,0.4439,0.4828,66.8552,336.8552,9.9,-2.9208,0.89953,0.4047,3.8243,4.2294,0,0.4787,-3.236,3.744,4.757,3.985,3.694,3.698,11.023,6.644,11.194,10.633,10.307,8.924,6.431,6.818,6.524,6.111,5.918,25.791,21.412,18.512,18.466,4.379,7.279,2.9,7.325,2.946,25.962,20.686,25.075,5.276,4.389,0.887,7.45,6.563,2.174,0.046,0.0447213
3761,1818.182,2409.816,13.1846,-26.5669,19.933,0.064,19.733,0.0490682,0.0491102,19.732,1.963,0.3693,-6.3697,6.3804,273.3182,183.3182,9.6,-2.9208,1.07525,0.686,3.8736,4.2231,0,0.4787,-2.9657,3.014,3.997,3.12,3.056,3.114,8.715,5.531,8.822,8.382,8.062,6.977,5.373,5.666,5.412,5.107,4.962,23.483,20.299,17.782,17.882,3.184,5.701,2.517,5.601,2.417,23.59,19.73,22.83,3.86,3.1,0.76,5.808,5.048,1.948,-0.1,0.0151329
2068,1759.477,2176.02,13.2018,-26.5902,19.888,0.08,19.688,0.0511446,0.0511903,19.687,2.069,4.4202,1.4502,4.652,18.164,288.164,9.7,-2.9208,1.04023,0.722,3.8596,4.1165,0,0.4787,-2.6514,2.921,3.939,3.069,2.929,2.972,9.116,5.593,9.228,8.758,8.436,7.255,5.42,5.741,5.47,5.137,4.977,23.884,20.361,17.689,17.74,3.523,6.195,2.672,6.144,2.621,23.996,19.745,23.204,4.251,3.459,0.792,6.307,5.515,2.056,-0.051,0.0594388
3100,1760.802,2314.171,13.1957,-26.5751,20.367,0.113,20.167,0.0329003,0.0329192,20.166,2.446,-0.9598,-1.8935,2.1229,243.1205,153.1205,9.9,-2.9208,0.938577,0.7055,3.7998,3.8487,0,0.4787,-3.2574,3.018,4.09,3.32,2.928,2.899,11.441,6.239,11.693,11.059,10.73,9.24,5.986,6.445,6.118,5.632,5.409,26.209,21.007,17.786,17.667,5.202,8.423,3.221,8.542,3.34,26.461,20.177,25.498,6.284,5.321,0.963,8.675,7.712,2.391,0.119,0.0560892
3055,1901.833,2308.05,13.17872,-26.5812,20.546,0.081,20.346,0.02789973,0.0279133,20.345,2.163,-0.0877,2.917,2.9184,91.7216,1.7216,9.9,-2.9208,0.921244,0.5463,3.826,4.105,0,0.4787,-2.6535,3.385,4.407,3.619,3.338,3.346,10.643,6.296,10.81,10.254,9.928,8.555,6.084,6.47,6.174,5.766,5.572,25.411,21.064,18.153,18.114,4.347,7.258,2.911,7.297,2.95,25.578,20.34,24.696,5.238,4.356,0.882,7.425,6.543,2.187,0.039,0.0245151
2694,1793.125,2257.927,13.1942,-26.5825,20.73,0.106,20.53,0.0235505,0.0235602,20.53,1.973,4.2096,3.1024,5.2293,36.3895,306.3895,9.0,-2.9208,1.08685,0.3965,3.8582,4.4564,0,0.4787,-2.2758,3.75,4.734,3.912,3.75,3.786,9.925,6.348,10.037,9.557,9.234,8.023,6.174,6.492,6.226,5.893,5.737,24.693,21.116,18.518,18.554,3.577,6.175,2.598,6.139,2.562,24.805,20.505,24.002,4.3,3.497,0.803,6.287,5.484,1.987,-0.036,0.0286537
2215,1767.643,2199.623,13.1998,-26.5879,19.834,0.097,19.634,0.0537527,0.0538031,19.633,1.821,1.2464,-3.0847,3.3269,292.0017,202.0017,9.45,-2.9208,1.13093,0.6902,3.8888,4.3017,0,0.4787,-3.3569,3.019,3.959,3.082,3.085,3.162,8.18,5.36,8.296,7.884,7.568,6.597,5.22,5.479,5.249,4.975,4.847,22.948,20.128,17.787,17.93,2.82,5.161,2.341,5.018,2.198,23.064,19.615,22.336,3.449,2.721,0.728,5.277,4.549,1.828,-0.143,0.0193127